Time (s),Voltage (V),Absorbance (AU)
0.000,0.473,0.473
1.000,0.636,0.636
2.000,0.333,0.333
3.000,0.807,0.807
4.000,0.966,0.966
5.000,0.346,0.346
6.000,0.497,0.497
7.000,0.326,0.326
8.000,0.116,0.116
9.000,0.267,0.267
10.000,0.310,0.310
11.000,0.031,0.031
12.000,0.261,0.261
13.000,0.038,0.038
