Time (s),Voltage (V),Absorbance (AU)
0.000,-0.376,-0.376
0.099,-0.374,-0.374
0.200,-0.372,-0.372
0.299,-0.371,-0.371
0.401,-0.370,-0.370
0.499,-0.371,-0.371
0.600,-0.373,-0.373
0.701,-0.373,-0.373
0.801,-0.375,-0.375
0.899,-0.374,-0.374
0.999,-0.374,-0.374
1.100,-0.376,-0.376
1.200,-0.377,-0.377
1.300,-0.376,-0.376
1.400,-0.370,-0.370
1.500,-0.368,-0.368
1.600,-0.371,-0.371
1.699,-0.372,-0.372
1.799,-0.374,-0.374
1.901,-0.374,-0.374
2.000,-0.372,-0.372
2.100,-0.373,-0.373
2.200,-0.374,-0.374
2.300,-0.378,-0.378
2.399,-0.384,-0.384
2.499,-0.383,-0.383
2.600,-0.380,-0.380
2.701,-0.377,-0.377
2.800,-0.377,-0.377
2.899,-0.376,-0.376
3.001,-0.378,-0.378
3.101,-0.377,-0.377
3.199,-0.378,-0.378
3.299,-0.376,-0.376
3.400,-0.376,-0.376
3.500,-0.378,-0.378
3.600,-0.377,-0.377
3.701,-0.379,-0.379
3.801,-0.376,-0.376
3.899,-0.378,-0.378
3.999,-0.372,-0.372
4.101,-0.371,-0.371
4.201,-0.368,-0.368
4.299,-0.369,-0.369
4.399,-0.370,-0.370
4.500,-0.368,-0.368
4.601,-0.370,-0.370
4.699,-0.370,-0.370
4.799,-0.372,-0.372
4.901,-0.372,-0.372
5.000,-0.374,-0.374
5.100,-0.374,-0.374
5.201,-0.373,-0.373
5.301,-0.371,-0.371
5.401,-0.369,-0.369
5.499,-0.371,-0.371
5.600,-0.370,-0.370
5.700,-0.372,-0.372
5.800,-0.374,-0.374
5.900,-0.375,-0.375
6.001,-0.379,-0.379
6.101,-0.382,-0.382
6.199,-0.388,-0.388
6.300,-0.393,-0.393
6.400,-0.397,-0.397
6.500,-0.400,-0.400
6.599,-0.403,-0.403
6.700,-0.406,-0.406
6.801,-0.403,-0.403
6.901,-0.402,-0.402
6.999,-0.399,-0.399
7.100,-0.395,-0.395
7.200,-0.393,-0.393
7.300,-0.392,-0.392
7.400,-0.389,-0.389
7.501,-0.387,-0.387
7.600,-0.385,-0.385
7.701,-0.381,-0.381
7.799,-0.381,-0.381
7.900,-0.381,-0.381
8.000,-0.381,-0.381
8.100,-0.381,-0.381
8.201,-0.379,-0.379
8.300,-0.376,-0.376
8.400,-0.372,-0.372
8.500,-0.366,-0.366
8.601,-0.359,-0.359
8.700,-0.357,-0.357
8.800,-0.354,-0.354
8.900,-0.352,-0.352
9.001,-0.351,-0.351
9.101,-0.350,-0.350
9.201,-0.348,-0.348
9.299,-0.349,-0.349
9.400,-0.365,-0.365
9.501,-0.417,-0.417
9.601,-0.448,-0.448
9.699,-0.449,-0.449
9.800,-0.440,-0.440
9.900,-0.433,-0.433
10.000,-0.427,-0.427
10.101,-0.394,-0.394
10.201,-0.349,-0.349
10.301,-0.300,-0.300
10.399,-0.240,-0.240
10.500,-0.156,-0.156
10.600,-0.092,-0.092
10.700,-0.052,-0.052
10.800,-0.025,-0.025
10.900,0.003,0.003
11.000,0.034,0.034
11.100,0.035,0.035
11.200,0.025,0.025
11.301,0.015,0.015
11.401,0.006,0.006
11.500,0.006,0.006
11.601,0.006,0.006
11.701,0.004,0.004
11.800,0.002,0.002
11.900,0.002,0.002
12.001,0.000,0.000
12.101,0.000,0.000
12.201,-0.000,-0.000
12.300,-0.000,-0.000
12.401,-0.001,-0.001
12.500,-0.001,-0.001
12.600,-0.001,-0.001
12.699,0.001,0.001
12.800,0.004,0.004
12.900,0.006,0.006
13.000,0.007,0.007
13.101,0.008,0.008
13.201,0.008,0.008
13.300,0.008,0.008
13.401,0.008,0.008
13.500,0.009,0.009
13.600,0.009,0.009
13.701,0.006,0.006
13.801,0.003,0.003
13.900,0.001,0.001
14.001,0.000,0.000
14.100,-0.001,-0.001
14.200,-0.001,-0.001
14.301,0.001,0.001
14.400,-0.018,-0.018
14.500,-0.029,-0.029
14.601,-0.037,-0.037
14.701,-0.049,-0.049
14.800,-0.060,-0.060
14.900,-0.073,-0.073
15.001,-0.073,-0.073
15.101,-0.083,-0.083
15.201,-0.141,-0.141
15.301,-0.179,-0.179
15.400,-0.190,-0.190
15.500,-0.192,-0.192
15.600,-0.183,-0.183
15.701,-0.173,-0.173
15.800,-0.165,-0.165
15.900,-0.162,-0.162
16.000,-0.187,-0.187
16.101,-0.179,-0.179
16.201,-0.123,-0.123
16.301,-0.091,-0.091
16.401,-0.057,-0.057
16.502,-0.050,-0.050
16.600,-0.051,-0.051
16.700,-0.046,-0.046
16.800,-0.056,-0.056
16.901,-0.066,-0.066
17.001,-0.065,-0.065
17.101,-0.087,-0.087
17.201,-0.091,-0.091
17.300,-0.112,-0.112
17.400,-0.141,-0.141
17.500,-0.161,-0.161
17.600,-0.188,-0.188
17.700,-0.218,-0.218
17.801,-0.230,-0.230
17.901,-0.236,-0.236
18.002,-0.239,-0.239
18.100,-0.242,-0.242
18.200,-0.262,-0.262
18.300,-0.264,-0.264
18.401,-0.266,-0.266
18.501,-0.266,-0.266
18.601,-0.266,-0.266
18.700,-0.262,-0.262
18.801,-0.245,-0.245
18.901,-0.228,-0.228
19.001,-0.199,-0.199
19.101,-0.173,-0.173
19.200,-0.146,-0.146
19.300,-0.119,-0.119
19.400,-0.093,-0.093
19.501,-0.072,-0.072
19.601,-0.062,-0.062
19.701,-0.039,-0.039
19.801,-0.030,-0.030
19.902,-0.021,-0.021
20.000,-0.023,-0.023
20.100,-0.023,-0.023
20.200,-0.023,-0.023
20.301,-0.023,-0.023
20.401,-0.024,-0.024
20.501,-0.030,-0.030
20.601,-0.019,-0.019
20.702,-0.019,-0.019
20.800,-0.019,-0.019
20.900,-0.019,-0.019
21.001,-0.019,-0.019
21.101,-0.019,-0.019
21.201,-0.019,-0.019
21.301,-0.019,-0.019
21.402,-0.018,-0.018
21.500,-0.006,-0.006
21.600,-0.001,-0.001
21.700,-0.001,-0.001
21.801,-0.001,-0.001
21.901,-0.001,-0.001
22.000,-0.001,-0.001
22.100,-0.001,-0.001
22.201,-0.001,-0.001
22.301,-0.001,-0.001
22.401,-0.001,-0.001
22.502,-0.001,-0.001
22.602,-0.001,-0.001
22.700,-0.001,-0.001
22.801,-0.001,-0.001
22.902,-0.001,-0.001
23.001,0.003,0.003
23.101,-0.003,-0.003
23.200,-0.020,-0.020
23.301,-0.017,-0.017
23.401,-0.017,-0.017
23.501,-0.017,-0.017
23.601,-0.022,-0.022
23.702,-0.031,-0.031
23.801,-0.047,-0.047
23.901,-0.047,-0.047
24.002,-0.051,-0.051
24.102,-0.045,-0.045
24.201,-0.037,-0.037
24.301,-0.059,-0.059
24.402,-0.082,-0.082
24.502,-0.092,-0.092
24.600,-0.086,-0.086
24.700,-0.082,-0.082
24.801,-0.080,-0.080
24.901,-0.089,-0.089
25.000,-0.094,-0.094
25.101,-0.098,-0.098
25.202,-0.096,-0.096
25.302,-0.089,-0.089
25.400,-0.081,-0.081
25.501,-0.077,-0.077
25.601,-0.077,-0.077
25.701,-0.073,-0.073
25.801,-0.058,-0.058
25.902,-0.049,-0.049
26.002,-0.048,-0.048
26.101,-0.051,-0.051
26.201,-0.053,-0.053
26.302,-0.050,-0.050
26.402,-0.044,-0.044
26.501,-0.038,-0.038
26.600,-0.038,-0.038
26.701,-0.038,-0.038
26.801,-0.048,-0.048
26.900,-0.069,-0.069
27.001,-0.090,-0.090
27.101,-0.107,-0.107
27.202,-0.124,-0.124
27.300,-0.140,-0.140
27.402,-0.147,-0.147
27.501,-0.148,-0.148
27.601,-0.148,-0.148
27.701,-0.149,-0.149
27.802,-0.146,-0.146
27.901,-0.134,-0.134
28.000,-0.119,-0.119
28.100,-0.101,-0.101
28.201,-0.083,-0.083
28.301,-0.068,-0.068
28.400,-0.053,-0.053
28.500,-0.052,-0.052
28.601,-0.052,-0.052
28.701,-0.050,-0.050
28.800,-0.043,-0.043
28.901,-0.034,-0.034
29.001,-0.026,-0.026
29.102,-0.019,-0.019
29.200,-0.011,-0.011
29.301,-0.001,-0.001
29.401,-0.005,-0.005
29.501,-0.022,-0.022
29.600,-0.044,-0.044
29.702,-0.069,-0.069
29.801,-0.095,-0.095
29.901,-0.120,-0.120
30.001,-0.146,-0.146
30.102,-0.173,-0.173
30.201,-0.199,-0.199
30.301,-0.206,-0.206
30.401,-0.202,-0.202
30.502,-0.184,-0.184
30.601,-0.160,-0.160
30.700,-0.134,-0.134
30.801,-0.106,-0.106
30.902,-0.079,-0.079
31.001,-0.050,-0.050
31.101,-0.022,-0.022
31.201,0.007,0.007
31.301,0.016,0.016
31.401,0.014,0.014
31.501,0.010,0.010
31.601,-0.006,-0.006
31.702,-0.029,-0.029
31.802,-0.055,-0.055
31.902,-0.083,-0.083
32.001,-0.111,-0.111
32.102,-0.140,-0.140
32.202,-0.169,-0.169
32.301,-0.197,-0.197
32.401,-0.222,-0.222
32.502,-0.245,-0.245
32.600,-0.258,-0.258
32.701,-0.262,-0.262
32.801,-0.264,-0.264
32.901,-0.265,-0.265
33.001,-0.266,-0.266
33.101,-0.266,-0.266
33.202,-0.267,-0.267
33.301,-0.267,-0.267
33.402,-0.267,-0.267
33.502,-0.267,-0.267
33.602,-0.267,-0.267
33.702,-0.267,-0.267
33.801,-0.267,-0.267
33.901,-0.267,-0.267
34.001,-0.266,-0.266
34.101,-0.266,-0.266
34.202,-0.266,-0.266
34.302,-0.266,-0.266
34.402,-0.266,-0.266
34.500,-0.266,-0.266
34.602,-0.266,-0.266
34.702,-0.266,-0.266
34.801,-0.266,-0.266
34.902,-0.266,-0.266
35.002,-0.267,-0.267
35.101,-0.267,-0.267
35.201,-0.267,-0.267
35.301,-0.267,-0.267
35.401,-0.268,-0.268
35.502,-0.267,-0.267
35.601,-0.267,-0.267
35.701,-0.267,-0.267
35.802,-0.267,-0.267
35.901,-0.267,-0.267
36.001,-0.267,-0.267
36.102,-0.267,-0.267
36.201,-0.268,-0.268
36.301,-0.268,-0.268
36.402,-0.268,-0.268
36.502,-0.268,-0.268
36.601,-0.268,-0.268
36.702,-0.268,-0.268
36.803,-0.268,-0.268
36.901,-0.268,-0.268
37.001,-0.268,-0.268
37.102,-0.268,-0.268
37.201,-0.268,-0.268
37.302,-0.268,-0.268
37.402,-0.268,-0.268
37.501,-0.268,-0.268
37.602,-0.268,-0.268
37.701,-0.268,-0.268
37.801,-0.267,-0.267
37.901,-0.267,-0.267
38.002,-0.267,-0.267
38.102,-0.267,-0.267
38.201,-0.267,-0.267
38.301,-0.267,-0.267
38.401,-0.268,-0.268
38.501,-0.268,-0.268
38.601,-0.268,-0.268
38.703,-0.268,-0.268
38.802,-0.268,-0.268
38.902,-0.268,-0.268
39.002,-0.268,-0.268
39.102,-0.268,-0.268
39.201,-0.268,-0.268
39.301,-0.268,-0.268
39.402,-0.268,-0.268
39.501,-0.268,-0.268
39.601,-0.268,-0.268
39.702,-0.268,-0.268
39.802,-0.268,-0.268
39.901,-0.268,-0.268
40.002,-0.268,-0.268
40.102,-0.268,-0.268
40.202,-0.260,-0.260
40.302,-0.243,-0.243
40.402,-0.227,-0.227
40.502,-0.211,-0.211
40.602,-0.195,-0.195
40.702,-0.178,-0.178
40.802,-0.162,-0.162
40.901,-0.145,-0.145
41.002,-0.127,-0.127
41.102,-0.110,-0.110
41.202,-0.101,-0.101
41.303,-0.100,-0.100
41.401,-0.099,-0.099
41.501,-0.096,-0.096
41.601,-0.095,-0.095
41.703,-0.094,-0.094
41.802,-0.093,-0.093
41.902,-0.093,-0.093
42.002,-0.095,-0.095
42.103,-0.096,-0.096
42.201,-0.096,-0.096
42.302,-0.097,-0.097
42.401,-0.098,-0.098
42.502,-0.101,-0.101
42.601,-0.102,-0.102
42.702,-0.103,-0.103
42.802,-0.102,-0.102
42.902,-0.102,-0.102
43.001,-0.099,-0.099
43.101,-0.095,-0.095
43.203,-0.093,-0.093
43.302,-0.090,-0.090
43.402,-0.087,-0.087
43.502,-0.080,-0.080
43.603,-0.076,-0.076
43.701,-0.077,-0.077
43.801,-0.079,-0.079
43.901,-0.080,-0.080
44.002,-0.083,-0.083
44.102,-0.088,-0.088
44.202,-0.094,-0.094
44.302,-0.101,-0.101
44.403,-0.108,-0.108
44.502,-0.117,-0.117
44.602,-0.125,-0.125
44.703,-0.137,-0.137
44.802,-0.129,-0.129
44.902,-0.126,-0.126
45.001,-0.124,-0.124
45.103,-0.120,-0.120
45.203,-0.115,-0.115
45.302,-0.109,-0.109
45.401,-0.105,-0.105
45.503,-0.098,-0.098
45.602,-0.090,-0.090
45.701,-0.075,-0.075
45.801,-0.078,-0.078
45.903,-0.076,-0.076
46.001,-0.073,-0.073
46.102,-0.072,-0.072
46.203,-0.072,-0.072
46.303,-0.070,-0.070
46.401,-0.069,-0.069
46.501,-0.070,-0.070
46.603,-0.071,-0.071
46.703,-0.073,-0.073
46.801,-0.073,-0.073
46.902,-0.075,-0.075
47.003,-0.076,-0.076
47.103,-0.077,-0.077
47.202,-0.078,-0.078
47.302,-0.080,-0.080
47.403,-0.081,-0.081
47.503,-0.083,-0.083
47.601,-0.084,-0.084
47.702,-0.082,-0.082
47.802,-0.080,-0.080
47.901,-0.077,-0.077
48.002,-0.072,-0.072
48.103,-0.065,-0.065
48.203,-0.057,-0.057
48.302,-0.047,-0.047
48.401,-0.036,-0.036
48.503,-0.024,-0.024
48.603,-0.013,-0.013
48.701,-0.008,-0.008
48.801,-0.002,-0.002
48.902,0.003,0.003
49.002,0.006,0.006
49.101,0.007,0.007
49.202,0.006,0.006
49.302,0.005,0.005
49.402,0.006,0.006
49.502,0.006,0.006
49.603,0.007,0.007
49.703,0.010,0.010
49.803,0.012,0.012
49.901,0.013,0.013
50.002,0.015,0.015
50.103,0.018,0.018
50.201,0.020,0.020
50.302,0.021,0.021
50.403,0.020,0.020
50.503,0.019,0.019
50.601,0.017,0.017
50.702,0.016,0.016
50.802,0.015,0.015
50.902,0.014,0.014
51.002,0.012,0.012
51.103,0.011,0.011
51.202,0.011,0.011
51.302,0.011,0.011
51.402,0.011,0.011
51.502,0.011,0.011
51.603,0.012,0.012
51.702,0.013,0.013
51.802,0.013,0.013
51.902,0.015,0.015
52.003,0.017,0.017
52.102,0.019,0.019
52.202,0.021,0.021
52.303,0.021,0.021
52.403,0.021,0.021
52.501,0.012,0.012
52.603,0.004,0.004
52.703,-0.006,-0.006
52.803,-0.017,-0.017
52.902,-0.034,-0.034
53.003,-0.048,-0.048
53.102,-0.054,-0.054
53.203,-0.058,-0.058
53.301,-0.063,-0.063
53.402,-0.067,-0.067
53.503,-0.064,-0.064
53.602,-0.061,-0.061
53.701,-0.056,-0.056
53.802,-0.042,-0.042
53.902,-0.025,-0.025
54.002,-0.015,-0.015
54.103,-0.012,-0.012
54.202,-0.009,-0.009
54.302,-0.004,-0.004
54.401,0.001,0.001
54.503,0.011,0.011
54.602,0.016,0.016
54.702,0.017,0.017
54.801,0.010,0.010
54.902,0.000,0.000
55.003,-0.006,-0.006
55.102,-0.014,-0.014
55.202,-0.021,-0.021
55.303,-0.035,-0.035
55.402,-0.060,-0.060
55.502,-0.083,-0.083
55.603,-0.091,-0.091
55.702,-0.113,-0.113
55.803,-0.135,-0.135
55.901,-0.130,-0.130
56.003,-0.156,-0.156
56.103,-0.191,-0.191
56.203,-0.205,-0.205
56.301,-0.209,-0.209
56.402,-0.229,-0.229
56.502,-0.244,-0.244
56.602,-0.241,-0.241
56.702,-0.199,-0.199
56.803,-0.181,-0.181
56.903,-0.193,-0.193
57.003,-0.145,-0.145
57.103,-0.133,-0.133
57.203,-0.142,-0.142
57.303,-0.134,-0.134
57.403,-0.091,-0.091
57.502,-0.048,-0.048
57.603,-0.059,-0.059
57.703,-0.099,-0.099
57.802,-0.116,-0.116
57.903,-0.107,-0.107
58.003,-0.090,-0.090
58.103,-0.045,-0.045
58.202,-0.029,-0.029
58.302,-0.016,-0.016
58.402,-0.013,-0.013
58.503,-0.036,-0.036
58.603,-0.031,-0.031
58.703,-0.002,-0.002
58.803,0.042,0.042
58.902,0.040,0.040
59.003,0.010,0.010
59.103,-0.004,-0.004
59.203,-0.006,-0.006
59.303,-0.032,-0.032
59.402,-0.034,-0.034
59.503,-0.010,-0.010
59.602,0.020,0.020
59.703,0.013,0.013
59.803,-0.002,-0.002
59.903,0.009,0.009
60.003,0.008,0.008
60.103,0.011,0.011
60.202,0.002,0.002
60.303,-0.038,-0.038
60.403,-0.050,-0.050
60.503,-0.057,-0.057
60.603,-0.058,-0.058
60.702,-0.062,-0.062
60.802,-0.066,-0.066
60.903,-0.065,-0.065
61.003,-0.121,-0.121
61.103,-0.142,-0.142
61.203,-0.115,-0.115
61.303,-0.066,-0.066
61.402,-0.078,-0.078
61.503,-0.083,-0.083
61.603,-0.099,-0.099
61.702,-0.102,-0.102
61.803,-0.114,-0.114
61.903,-0.116,-0.116
62.004,-0.058,-0.058
62.103,-0.049,-0.049
62.203,-0.064,-0.064
62.302,-0.047,-0.047
62.402,-0.021,-0.021
62.503,-0.074,-0.074
62.602,-0.091,-0.091
62.702,-0.077,-0.077
62.803,-0.059,-0.059
62.902,-0.064,-0.064
63.002,-0.061,-0.061
63.104,-0.069,-0.069
63.202,-0.077,-0.077
63.303,-0.080,-0.080
63.403,-0.065,-0.065
63.503,0.000,0.000
63.603,0.018,0.018
63.702,0.017,0.017
63.802,0.029,0.029
63.904,0.032,0.032
64.003,0.013,0.013
64.103,0.035,0.035
64.203,0.051,0.051
64.304,0.034,0.034
64.402,0.018,0.018
64.503,0.017,0.017
64.603,0.014,0.014
64.703,0.011,0.011
64.803,-0.002,-0.002
64.902,0.013,0.013
65.004,0.047,0.047
65.103,0.045,0.045
65.203,0.055,0.055
65.302,0.059,0.059
65.403,0.057,0.057
65.502,0.049,0.049
65.602,0.052,0.052
65.702,0.062,0.062
65.804,0.060,0.060
65.902,0.048,0.048
66.002,0.032,0.032
66.102,0.045,0.045
66.203,0.042,0.042
66.303,0.058,0.058
66.403,0.058,0.058
66.503,0.053,0.053
66.604,0.049,0.049
66.703,0.038,0.038
66.803,0.013,0.013
66.904,0.015,0.015
67.004,0.010,0.010
67.102,0.001,0.001
67.202,-0.002,-0.002
67.304,-0.001,-0.001
67.403,-0.004,-0.004
67.503,-0.010,-0.010
67.602,-0.007,-0.007
67.703,-0.003,-0.003
67.802,0.019,0.019
67.902,0.016,0.016
68.004,0.014,0.014
68.103,0.002,0.002
68.203,-0.011,-0.011
68.303,-0.038,-0.038
68.404,-0.059,-0.059
68.503,-0.077,-0.077
68.603,-0.106,-0.106
68.703,-0.122,-0.122
68.804,-0.144,-0.144
68.904,-0.167,-0.167
69.002,-0.160,-0.160
69.102,-0.155,-0.155
69.203,-0.142,-0.142
69.304,-0.120,-0.120
69.402,-0.091,-0.091
69.502,-0.057,-0.057
69.603,-0.025,-0.025
69.703,-0.009,-0.009
69.803,0.014,0.014
69.904,0.034,0.034
70.004,0.015,0.015
70.103,-0.008,-0.008
70.203,-0.034,-0.034
70.303,-0.061,-0.061
70.404,-0.092,-0.092
70.502,-0.126,-0.126
70.603,-0.160,-0.160
70.703,-0.191,-0.191
70.803,-0.195,-0.195
70.902,-0.194,-0.194
71.002,-0.183,-0.183
71.104,-0.163,-0.163
71.204,-0.142,-0.142
71.302,-0.133,-0.133
71.403,-0.123,-0.123
71.503,-0.103,-0.103
71.603,-0.103,-0.103
71.702,-0.122,-0.122
71.804,-0.154,-0.154
71.904,-0.182,-0.182
72.002,-0.199,-0.199
72.102,-0.207,-0.207
72.204,-0.214,-0.214
72.303,-0.210,-0.210
72.403,-0.233,-0.233
72.503,-0.238,-0.238
72.604,-0.238,-0.238
72.703,-0.250,-0.250
72.802,-0.236,-0.236
72.903,-0.195,-0.195
73.004,-0.169,-0.169
73.104,-0.177,-0.177
73.202,-0.138,-0.138
73.303,-0.136,-0.136
73.403,-0.110,-0.110
73.502,-0.111,-0.111
73.602,-0.088,-0.088
73.703,-0.024,-0.024
73.804,-0.004,-0.004
73.902,-0.035,-0.035
74.002,-0.063,-0.063
74.103,-0.057,-0.057
74.204,-0.161,-0.161
74.303,-0.173,-0.173
74.404,-0.156,-0.156
74.504,-0.142,-0.142
74.603,-0.161,-0.161
74.703,-0.183,-0.183
74.804,-0.166,-0.166
74.904,-0.169,-0.169
75.004,-0.213,-0.213
75.103,-0.207,-0.207
75.203,-0.144,-0.144
75.303,-0.102,-0.102
75.404,-0.111,-0.111
75.502,-0.124,-0.124
75.603,-0.081,-0.081
75.704,-0.115,-0.115
75.802,-0.168,-0.168
75.903,-0.219,-0.219
76.003,-0.154,-0.154
76.104,-0.158,-0.158
76.203,-0.161,-0.161
76.303,-0.203,-0.203
76.404,-0.244,-0.244
76.504,-0.260,-0.260
76.602,-0.281,-0.281
76.703,-0.250,-0.250
76.804,-0.242,-0.242
76.904,-0.194,-0.194
77.002,-0.216,-0.216
77.104,-0.228,-0.228
77.204,-0.242,-0.242
77.303,-0.241,-0.241
77.404,-0.220,-0.220
77.504,-0.211,-0.211
77.603,-0.233,-0.233
77.703,-0.233,-0.233
77.804,-0.226,-0.226
77.903,-0.217,-0.217
78.003,-0.209,-0.209
78.103,-0.202,-0.202
78.204,-0.189,-0.189
78.303,-0.184,-0.184
78.404,-0.176,-0.176
78.503,-0.172,-0.172
78.603,-0.169,-0.169
78.703,-0.166,-0.166
78.803,-0.164,-0.164
78.903,-0.166,-0.166
79.004,-0.170,-0.170
79.104,-0.175,-0.175
79.204,-0.176,-0.176
79.303,-0.179,-0.179
79.404,-0.181,-0.181
79.504,-0.182,-0.182
79.604,-0.185,-0.185
79.703,-0.186,-0.186
79.804,-0.190,-0.190
79.904,-0.191,-0.191
80.002,-0.192,-0.192
80.103,-0.190,-0.190
80.203,-0.191,-0.191
80.303,-0.192,-0.192
80.403,-0.192,-0.192
80.503,-0.193,-0.193
80.603,-0.195,-0.195
80.704,-0.195,-0.195
80.803,-0.193,-0.193
80.904,-0.193,-0.193
81.003,-0.193,-0.193
81.103,-0.197,-0.197
81.203,-0.199,-0.199
81.304,-0.201,-0.201
81.404,-0.194,-0.194
81.504,-0.162,-0.162
81.603,-0.156,-0.156
81.704,-0.157,-0.157
81.804,-0.160,-0.160
81.903,-0.189,-0.189
82.003,-0.195,-0.195
82.103,-0.194,-0.194
82.203,-0.193,-0.193
82.305,-0.192,-0.192
82.403,-0.193,-0.193
82.503,-0.202,-0.202
82.603,-0.208,-0.208
82.704,-0.209,-0.209
82.804,-0.246,-0.246
82.903,-0.274,-0.274
83.003,-0.292,-0.292
83.103,-0.304,-0.304
83.203,-0.313,-0.313
83.303,-0.321,-0.321
83.403,-0.335,-0.335
83.504,-0.365,-0.365
83.603,-0.372,-0.372
83.704,-0.378,-0.378
83.805,-0.346,-0.346
83.903,-0.296,-0.296
84.004,-0.280,-0.280
84.103,-0.274,-0.274
84.205,-0.271,-0.271
84.304,-0.270,-0.270
84.404,-0.269,-0.269
84.503,-0.269,-0.269
84.604,-0.269,-0.269
84.704,-0.268,-0.268
84.804,-0.268,-0.268
84.903,-0.268,-0.268
85.003,-0.268,-0.268
85.104,-0.268,-0.268
85.204,-0.268,-0.268
85.305,-0.267,-0.267
85.403,-0.268,-0.268
85.503,-0.268,-0.268
85.604,-0.268,-0.268
85.704,-0.268,-0.268
85.803,-0.268,-0.268
85.903,-0.268,-0.268
86.003,-0.268,-0.268
86.104,-0.268,-0.268
86.203,-0.268,-0.268
86.303,-0.268,-0.268
86.403,-0.268,-0.268
86.504,-0.269,-0.269
86.604,-0.269,-0.269
86.703,-0.269,-0.269
86.803,-0.269,-0.269
86.903,-0.269,-0.269
87.003,-0.269,-0.269
87.104,-0.269,-0.269
87.205,-0.269,-0.269
87.304,-0.268,-0.268
87.403,-0.269,-0.269
87.504,-0.269,-0.269
87.605,-0.269,-0.269
87.704,-0.268,-0.268
87.804,-0.269,-0.269
87.904,-0.269,-0.269
88.005,-0.262,-0.262
88.104,-0.254,-0.254
88.204,-0.235,-0.235
88.304,-0.226,-0.226
88.403,-0.223,-0.223
88.503,-0.222,-0.222
88.604,-0.221,-0.221
88.705,-0.221,-0.221
88.803,-0.221,-0.221
88.903,-0.221,-0.221
89.003,-0.227,-0.227
89.104,-0.235,-0.235
89.204,-0.254,-0.254
89.303,-0.262,-0.262
89.404,-0.265,-0.265
89.505,-0.267,-0.267
89.603,-0.267,-0.267
89.703,-0.268,-0.268
89.803,-0.260,-0.260
89.904,-0.301,-0.301
90.004,-0.319,-0.319
90.104,-0.326,-0.326
90.205,-0.328,-0.328
90.305,-0.329,-0.329
90.404,-0.330,-0.330
90.503,-0.330,-0.330
90.604,-0.331,-0.331
90.704,-0.331,-0.331
90.804,-0.339,-0.339
90.904,-0.298,-0.298
91.005,-0.280,-0.280
91.104,-0.274,-0.274
91.204,-0.271,-0.271
91.304,-0.270,-0.270
91.405,-0.270,-0.270
91.503,-0.269,-0.269
91.603,-0.269,-0.269
91.705,-0.270,-0.270
91.805,-0.271,-0.271
91.904,-0.272,-0.272
92.004,-0.272,-0.272
92.105,-0.271,-0.271
92.205,-0.272,-0.272
92.304,-0.272,-0.272
92.404,-0.272,-0.272
92.504,-0.272,-0.272
92.604,-0.272,-0.272
92.703,-0.272,-0.272
92.803,-0.270,-0.270
92.905,-0.269,-0.269
93.005,-0.269,-0.269
93.103,-0.270,-0.270
93.204,-0.270,-0.270
93.304,-0.269,-0.269
93.404,-0.269,-0.269
93.504,-0.270,-0.270
93.604,-0.270,-0.270
93.705,-0.270,-0.270
93.803,-0.270,-0.270
93.903,-0.270,-0.270
94.004,-0.270,-0.270
94.104,-0.270,-0.270
94.203,-0.270,-0.270
94.303,-0.270,-0.270
94.404,-0.270,-0.270
94.504,-0.270,-0.270
94.604,-0.270,-0.270
94.705,-0.270,-0.270
94.804,-0.270,-0.270
94.904,-0.270,-0.270
95.003,-0.270,-0.270
95.105,-0.270,-0.270
95.205,-0.270,-0.270
95.304,-0.270,-0.270
95.404,-0.270,-0.270
95.504,-0.270,-0.270
95.604,-0.270,-0.270
95.703,-0.270,-0.270
95.804,-0.270,-0.270
95.904,-0.270,-0.270
96.005,-0.270,-0.270
96.104,-0.270,-0.270
96.203,-0.270,-0.270
96.304,-0.270,-0.270
96.404,-0.270,-0.270
96.504,-0.270,-0.270
96.605,-0.270,-0.270
96.704,-0.270,-0.270
96.805,-0.270,-0.270
96.903,-0.270,-0.270
97.005,-0.270,-0.270
97.105,-0.270,-0.270
97.205,-0.270,-0.270
97.303,-0.270,-0.270
97.404,-0.270,-0.270
97.505,-0.270,-0.270
97.604,-0.270,-0.270
97.704,-0.270,-0.270
97.805,-0.270,-0.270
97.904,-0.270,-0.270
98.003,-0.270,-0.270
98.104,-0.270,-0.270
98.204,-0.270,-0.270
98.304,-0.270,-0.270
98.403,-0.270,-0.270
98.504,-0.270,-0.270
98.605,-0.270,-0.270
98.705,-0.270,-0.270
98.803,-0.270,-0.270
98.904,-0.270,-0.270
99.004,-0.270,-0.270
99.105,-0.270,-0.270
99.203,-0.270,-0.270
99.304,-0.270,-0.270
99.404,-0.270,-0.270
99.503,-0.270,-0.270
99.604,-0.270,-0.270
99.704,-0.270,-0.270
99.805,-0.270,-0.270
99.903,-0.270,-0.270
100.004,-0.270,-0.270
100.104,-0.270,-0.270
100.205,-0.270,-0.270
100.304,-0.270,-0.270
100.405,-0.270,-0.270
100.505,-0.270,-0.270
100.605,-0.270,-0.270
100.703,-0.270,-0.270
100.804,-0.270,-0.270
100.904,-0.270,-0.270
101.005,-0.270,-0.270
101.104,-0.270,-0.270
101.205,-0.270,-0.270
101.305,-0.270,-0.270
101.404,-0.270,-0.270
101.505,-0.270,-0.270
101.604,-0.270,-0.270
101.705,-0.270,-0.270
101.805,-0.270,-0.270
101.904,-0.270,-0.270
102.004,-0.270,-0.270
102.105,-0.270,-0.270
102.204,-0.270,-0.270
102.305,-0.270,-0.270
102.404,-0.270,-0.270
102.505,-0.270,-0.270
102.604,-0.270,-0.270
102.704,-0.270,-0.270
102.804,-0.270,-0.270
102.904,-0.270,-0.270
103.005,-0.270,-0.270
103.105,-0.270,-0.270
103.204,-0.270,-0.270
103.305,-0.269,-0.269
103.404,-0.270,-0.270
103.504,-0.270,-0.270
103.605,-0.270,-0.270
103.704,-0.270,-0.270
103.804,-0.270,-0.270
103.905,-0.270,-0.270
104.004,-0.270,-0.270
104.105,-0.270,-0.270
104.205,-0.270,-0.270
104.304,-0.270,-0.270
104.405,-0.270,-0.270
104.505,-0.270,-0.270
104.604,-0.270,-0.270
104.704,-0.270,-0.270
104.805,-0.270,-0.270
104.904,-0.270,-0.270
105.004,-0.270,-0.270
105.104,-0.270,-0.270
105.204,-0.270,-0.270
105.305,-0.270,-0.270
105.404,-0.270,-0.270
105.504,-0.270,-0.270
105.603,-0.270,-0.270
105.705,-0.270,-0.270
105.804,-0.270,-0.270
105.905,-0.270,-0.270
106.005,-0.270,-0.270
106.105,-0.270,-0.270
106.205,-0.270,-0.270
106.305,-0.270,-0.270
106.405,-0.270,-0.270
106.505,-0.270,-0.270
106.604,-0.269,-0.269
106.704,-0.269,-0.269
106.805,-0.269,-0.269
106.904,-0.269,-0.269
107.005,-0.269,-0.269
107.105,-0.270,-0.270
107.204,-0.270,-0.270
107.304,-0.270,-0.270
107.405,-0.270,-0.270
107.505,-0.270,-0.270
107.604,-0.270,-0.270
107.704,-0.270,-0.270
107.804,-0.270,-0.270
107.905,-0.270,-0.270
108.005,-0.270,-0.270
108.104,-0.270,-0.270
108.205,-0.270,-0.270
108.304,-0.270,-0.270
108.404,-0.270,-0.270
108.504,-0.270,-0.270
108.604,-0.270,-0.270
108.704,-0.270,-0.270
108.804,-0.270,-0.270
108.905,-0.270,-0.270
109.006,-0.270,-0.270
109.104,-0.270,-0.270
109.204,-0.270,-0.270
109.304,-0.270,-0.270
109.406,-0.270,-0.270
109.504,-0.270,-0.270
109.605,-0.270,-0.270
109.705,-0.270,-0.270
109.805,-0.270,-0.270
109.904,-0.270,-0.270
110.004,-0.270,-0.270
110.104,-0.270,-0.270
110.205,-0.270,-0.270
110.305,-0.270,-0.270
110.404,-0.270,-0.270
110.505,-0.270,-0.270
110.606,-0.270,-0.270
110.704,-0.270,-0.270
110.804,-0.270,-0.270
110.906,-0.270,-0.270
111.004,-0.270,-0.270
111.104,-0.270,-0.270
111.204,-0.270,-0.270
111.306,-0.269,-0.269
111.405,-0.269,-0.269
111.504,-0.269,-0.269
111.605,-0.270,-0.270
111.705,-0.270,-0.270
111.804,-0.270,-0.270
111.905,-0.270,-0.270
112.006,-0.270,-0.270
112.104,-0.270,-0.270
112.204,-0.270,-0.270
112.305,-0.270,-0.270
112.406,-0.270,-0.270
112.505,-0.270,-0.270
112.605,-0.270,-0.270
112.704,-0.270,-0.270
112.806,-0.270,-0.270
112.905,-0.270,-0.270
113.005,-0.270,-0.270
113.105,-0.270,-0.270
113.205,-0.270,-0.270
113.304,-0.270,-0.270
113.404,-0.270,-0.270
113.504,-0.270,-0.270
113.605,-0.270,-0.270
113.705,-0.270,-0.270
113.804,-0.270,-0.270
113.905,-0.270,-0.270
114.005,-0.270,-0.270
114.105,-0.270,-0.270
114.205,-0.270,-0.270
114.305,-0.270,-0.270
114.405,-0.270,-0.270
114.505,-0.270,-0.270
114.605,-0.270,-0.270
114.705,-0.270,-0.270
114.805,-0.270,-0.270
114.905,-0.270,-0.270
115.005,-0.270,-0.270
115.106,-0.270,-0.270
115.204,-0.270,-0.270
115.305,-0.270,-0.270
115.405,-0.270,-0.270
115.505,-0.270,-0.270
115.604,-0.270,-0.270
115.704,-0.270,-0.270
115.805,-0.270,-0.270
115.905,-0.270,-0.270
116.004,-0.270,-0.270
116.105,-0.270,-0.270
116.205,-0.270,-0.270
116.306,-0.270,-0.270
116.405,-0.270,-0.270
116.504,-0.270,-0.270
116.605,-0.270,-0.270
116.705,-0.270,-0.270
116.805,-0.270,-0.270
116.905,-0.270,-0.270
117.006,-0.270,-0.270
117.105,-0.270,-0.270
117.205,-0.269,-0.269
117.306,-0.269,-0.269
117.406,-0.269,-0.269
117.505,-0.269,-0.269
117.604,-0.269,-0.269
117.706,-0.269,-0.269
117.805,-0.270,-0.270
117.904,-0.270,-0.270
118.004,-0.270,-0.270
118.105,-0.270,-0.270
118.206,-0.270,-0.270
118.304,-0.270,-0.270
118.405,-0.270,-0.270
118.506,-0.270,-0.270
118.606,-0.270,-0.270
118.704,-0.270,-0.270
118.805,-0.269,-0.269
118.905,-0.269,-0.269
119.004,-0.269,-0.269
119.104,-0.269,-0.269
119.205,-0.269,-0.269
119.305,-0.269,-0.269
119.404,-0.270,-0.270
119.505,-0.270,-0.270
119.606,-0.270,-0.270
119.705,-0.270,-0.270
119.804,-0.270,-0.270
119.906,-0.270,-0.270
120.005,-0.270,-0.270
120.105,-0.270,-0.270
120.205,-0.270,-0.270
120.306,-0.270,-0.270
120.406,-0.270,-0.270
120.506,-0.270,-0.270
120.604,-0.270,-0.270
120.706,-0.270,-0.270
120.806,-0.270,-0.270
120.906,-0.270,-0.270
121.004,-0.270,-0.270
121.105,-0.270,-0.270
121.206,-0.270,-0.270
121.306,-0.270,-0.270
121.404,-0.270,-0.270
121.505,-0.270,-0.270
121.606,-0.270,-0.270
121.704,-0.270,-0.270
121.806,-0.270,-0.270
121.906,-0.270,-0.270
122.005,-0.270,-0.270
122.105,-0.270,-0.270
122.206,-0.270,-0.270
122.306,-0.270,-0.270
122.406,-0.270,-0.270
122.504,-0.270,-0.270
122.606,-0.270,-0.270
122.705,-0.269,-0.269
122.806,-0.269,-0.269
122.904,-0.269,-0.269
123.005,-0.269,-0.269
123.106,-0.269,-0.269
123.206,-0.269,-0.269
123.305,-0.269,-0.269
123.405,-0.269,-0.269
123.505,-0.269,-0.269
123.604,-0.269,-0.269
123.705,-0.269,-0.269
123.806,-0.269,-0.269
123.905,-0.269,-0.269
124.004,-0.269,-0.269
124.106,-0.269,-0.269
124.205,-0.269,-0.269
124.305,-0.269,-0.269
124.405,-0.269,-0.269
124.506,-0.270,-0.270
124.606,-0.270,-0.270
124.705,-0.270,-0.270
124.805,-0.270,-0.270
124.906,-0.270,-0.270
125.005,-0.270,-0.270
125.106,-0.270,-0.270
125.205,-0.270,-0.270
125.305,-0.270,-0.270
125.406,-0.270,-0.270
125.506,-0.270,-0.270
125.606,-0.270,-0.270
125.705,-0.270,-0.270
125.806,-0.270,-0.270
125.905,-0.270,-0.270
126.006,-0.270,-0.270
126.106,-0.270,-0.270
126.206,-0.270,-0.270
126.305,-0.269,-0.269
126.405,-0.270,-0.270
126.506,-0.270,-0.270
126.605,-0.270,-0.270
126.706,-0.270,-0.270
126.806,-0.270,-0.270
126.906,-0.270,-0.270
127.005,-0.270,-0.270
127.105,-0.270,-0.270
127.205,-0.270,-0.270
127.305,-0.270,-0.270
127.406,-0.270,-0.270
127.505,-0.270,-0.270
127.606,-0.270,-0.270
127.706,-0.270,-0.270
127.806,-0.270,-0.270
127.906,-0.270,-0.270
128.006,-0.270,-0.270
128.106,-0.270,-0.270
128.206,-0.270,-0.270
128.305,-0.270,-0.270
128.405,-0.270,-0.270
128.506,-0.270,-0.270
128.605,-0.270,-0.270
128.705,-0.270,-0.270
128.805,-0.270,-0.270
128.906,-0.270,-0.270
129.005,-0.270,-0.270
129.105,-0.270,-0.270
129.205,-0.270,-0.270
129.307,-0.270,-0.270
129.406,-0.270,-0.270
129.505,-0.270,-0.270
129.605,-0.270,-0.270
129.706,-0.270,-0.270
129.806,-0.270,-0.270
129.905,-0.270,-0.270
130.005,-0.270,-0.270
130.106,-0.270,-0.270
130.206,-0.270,-0.270
130.305,-0.270,-0.270
130.405,-0.270,-0.270
130.506,-0.270,-0.270
130.605,-0.270,-0.270
130.705,-0.270,-0.270
130.806,-0.270,-0.270
130.905,-0.270,-0.270
131.005,-0.269,-0.269
131.106,-0.269,-0.269
131.207,-0.269,-0.269
131.306,-0.269,-0.269
131.405,-0.269,-0.269
131.506,-0.269,-0.269
131.607,-0.269,-0.269
131.705,-0.269,-0.269
131.806,-0.269,-0.269
131.905,-0.269,-0.269
132.006,-0.270,-0.270
132.105,-0.270,-0.270
132.205,-0.270,-0.270
132.305,-0.270,-0.270
132.406,-0.270,-0.270
132.506,-0.270,-0.270
132.606,-0.270,-0.270
132.707,-0.270,-0.270
132.806,-0.269,-0.269
132.905,-0.270,-0.270
133.005,-0.269,-0.269
133.106,-0.270,-0.270
133.205,-0.270,-0.270
133.305,-0.270,-0.270
133.405,-0.270,-0.270
133.506,-0.270,-0.270
133.605,-0.270,-0.270
133.705,-0.270,-0.270
133.805,-0.270,-0.270
133.906,-0.270,-0.270
134.005,-0.270,-0.270
134.106,-0.270,-0.270
134.207,-0.269,-0.269
134.306,-0.269,-0.269
134.405,-0.269,-0.269
134.505,-0.269,-0.269
134.607,-0.269,-0.269
134.705,-0.269,-0.269
134.805,-0.269,-0.269
134.905,-0.269,-0.269
135.006,-0.270,-0.270
135.106,-0.270,-0.270
135.205,-0.270,-0.270
135.306,-0.270,-0.270
135.406,-0.270,-0.270
135.506,-0.269,-0.269
135.606,-0.269,-0.269
135.707,-0.269,-0.269
135.807,-0.269,-0.269
135.906,-0.269,-0.269
136.006,-0.269,-0.269
136.107,-0.269,-0.269
136.206,-0.269,-0.269
136.306,-0.269,-0.269
136.406,-0.269,-0.269
136.507,-0.269,-0.269
136.606,-0.270,-0.270
136.705,-0.270,-0.270
136.805,-0.270,-0.270
136.906,-0.270,-0.270
137.006,-0.270,-0.270
137.105,-0.270,-0.270
137.206,-0.270,-0.270
137.307,-0.270,-0.270
137.406,-0.270,-0.270
137.506,-0.270,-0.270
137.607,-0.270,-0.270
137.707,-0.270,-0.270
137.806,-0.281,-0.281
137.906,-0.294,-0.294
138.007,-0.273,-0.273
138.106,-0.248,-0.248
138.205,-0.219,-0.219
138.305,-0.180,-0.180
138.407,-0.183,-0.183
138.505,-0.174,-0.174
138.605,-0.261,-0.261
138.706,-0.317,-0.317
138.807,-0.324,-0.324
138.905,-0.317,-0.317
139.005,-0.341,-0.341
139.107,-0.367,-0.367
139.206,-0.396,-0.396
139.306,-0.435,-0.435
139.406,-0.432,-0.432
139.507,-0.441,-0.441
139.607,-0.355,-0.355
139.706,-0.298,-0.298
139.805,-0.280,-0.280
139.906,-0.274,-0.274
140.007,-0.271,-0.271
140.105,-0.270,-0.270
140.205,-0.270,-0.270
140.306,-0.270,-0.270
140.406,-0.269,-0.269
140.506,-0.269,-0.269
140.606,-0.269,-0.269
140.706,-0.269,-0.269
140.807,-0.269,-0.269
140.905,-0.269,-0.269
141.007,-0.269,-0.269
141.107,-0.269,-0.269
141.206,-0.270,-0.270
141.306,-0.270,-0.270
141.406,-0.270,-0.270
141.506,-0.270,-0.270
141.605,-0.270,-0.270
141.706,-0.270,-0.270
141.807,-0.269,-0.269
141.906,-0.269,-0.269
142.006,-0.269,-0.269
142.107,-0.270,-0.270
142.207,-0.269,-0.269
142.306,-0.269,-0.269
142.405,-0.269,-0.269
142.507,-0.269,-0.269
142.607,-0.269,-0.269
142.705,-0.269,-0.269
142.806,-0.269,-0.269
142.907,-0.269,-0.269
143.007,-0.269,-0.269
143.105,-0.270,-0.270
143.206,-0.269,-0.269
143.306,-0.269,-0.269
143.406,-0.269,-0.269
143.505,-0.269,-0.269
143.606,-0.269,-0.269
143.707,-0.269,-0.269
143.806,-0.269,-0.269
143.906,-0.269,-0.269
144.007,-0.270,-0.270
144.106,-0.270,-0.270
144.206,-0.270,-0.270
144.305,-0.270,-0.270
144.407,-0.270,-0.270
144.507,-0.270,-0.270
144.606,-0.270,-0.270
144.705,-0.270,-0.270
144.806,-0.270,-0.270
144.906,-0.270,-0.270
145.006,-0.270,-0.270
145.107,-0.269,-0.269
145.207,-0.269,-0.269
145.307,-0.269,-0.269
145.406,-0.269,-0.269
145.506,-0.269,-0.269
145.606,-0.269,-0.269
145.706,-0.269,-0.269
145.806,-0.269,-0.269
145.906,-0.269,-0.269
146.007,-0.269,-0.269
146.107,-0.269,-0.269
146.205,-0.269,-0.269
146.307,-0.269,-0.269
146.407,-0.269,-0.269
146.506,-0.269,-0.269
146.605,-0.269,-0.269
146.706,-0.269,-0.269
146.806,-0.269,-0.269
146.906,-0.269,-0.269
147.007,-0.270,-0.270
147.107,-0.269,-0.269
147.207,-0.270,-0.270
147.306,-0.270,-0.270
147.407,-0.270,-0.270
147.507,-0.270,-0.270
147.607,-0.270,-0.270
147.706,-0.270,-0.270
147.807,-0.270,-0.270
147.907,-0.269,-0.269
148.006,-0.269,-0.269
148.105,-0.269,-0.269
148.207,-0.269,-0.269
148.307,-0.269,-0.269
148.407,-0.269,-0.269
148.506,-0.269,-0.269
148.607,-0.269,-0.269
148.707,-0.269,-0.269
148.806,-0.269,-0.269
148.907,-0.269,-0.269
149.007,-0.269,-0.269
149.107,-0.270,-0.270
149.207,-0.269,-0.269
149.306,-0.270,-0.270
149.407,-0.269,-0.269
149.507,-0.269,-0.269
149.606,-0.269,-0.269
149.707,-0.269,-0.269
149.806,-0.269,-0.269
149.906,-0.269,-0.269
150.007,-0.269,-0.269
150.107,-0.269,-0.269
150.207,-0.269,-0.269
150.307,-0.269,-0.269
150.406,-0.269,-0.269
150.506,-0.270,-0.270
150.607,-0.270,-0.270
150.707,-0.270,-0.270
150.806,-0.270,-0.270
150.907,-0.270,-0.270
151.007,-0.270,-0.270
151.107,-0.270,-0.270
151.206,-0.270,-0.270
151.306,-0.270,-0.270
151.407,-0.270,-0.270
151.508,-0.269,-0.269
151.606,-0.269,-0.269
151.707,-0.269,-0.269
151.807,-0.269,-0.269
151.907,-0.269,-0.269
152.007,-0.269,-0.269
152.106,-0.269,-0.269
152.206,-0.269,-0.269
152.306,-0.269,-0.269
152.406,-0.270,-0.270
152.506,-0.270,-0.270
152.607,-0.270,-0.270
152.706,-0.269,-0.269
152.806,-0.269,-0.269
152.906,-0.270,-0.270
153.007,-0.269,-0.269
153.107,-0.269,-0.269
153.207,-0.269,-0.269
153.307,-0.269,-0.269
153.408,-0.269,-0.269
153.507,-0.269,-0.269
153.606,-0.269,-0.269
153.707,-0.269,-0.269
153.807,-0.269,-0.269
153.906,-0.269,-0.269
154.006,-0.269,-0.269
154.106,-0.269,-0.269
154.207,-0.269,-0.269
154.306,-0.269,-0.269
154.407,-0.269,-0.269
154.508,-0.269,-0.269
154.607,-0.269,-0.269
154.707,-0.269,-0.269
154.806,-0.269,-0.269
154.907,-0.269,-0.269
155.007,-0.269,-0.269
155.106,-0.269,-0.269
155.206,-0.269,-0.269
155.307,-0.269,-0.269
155.406,-0.269,-0.269
155.506,-0.269,-0.269
155.606,-0.269,-0.269
155.707,-0.269,-0.269
155.806,-0.269,-0.269
155.906,-0.269,-0.269
156.007,-0.269,-0.269
156.108,-0.269,-0.269
156.207,-0.269,-0.269
156.307,-0.269,-0.269
156.407,-0.269,-0.269
156.507,-0.269,-0.269
156.607,-0.269,-0.269
156.706,-0.269,-0.269
156.808,-0.269,-0.269
156.906,-0.269,-0.269
157.007,-0.269,-0.269
157.106,-0.269,-0.269
157.207,-0.269,-0.269
157.306,-0.269,-0.269
157.407,-0.269,-0.269
157.507,-0.270,-0.270
157.608,-0.270,-0.270
157.707,-0.270,-0.270
157.807,-0.269,-0.269
157.907,-0.269,-0.269
158.007,-0.269,-0.269
158.107,-0.269,-0.269
158.207,-0.269,-0.269
158.308,-0.269,-0.269
158.406,-0.269,-0.269
158.506,-0.269,-0.269
158.606,-0.269,-0.269
158.707,-0.269,-0.269
158.806,-0.269,-0.269
158.906,-0.269,-0.269
159.006,-0.269,-0.269
159.108,-0.269,-0.269
159.206,-0.269,-0.269
159.306,-0.269,-0.269
159.407,-0.269,-0.269
159.508,-0.269,-0.269
159.606,-0.269,-0.269
159.707,-0.269,-0.269
159.808,-0.269,-0.269
159.908,-0.269,-0.269
160.006,-0.269,-0.269
160.106,-0.269,-0.269
160.207,-0.269,-0.269
160.307,-0.269,-0.269
160.407,-0.269,-0.269
160.507,-0.269,-0.269
160.608,-0.269,-0.269
160.706,-0.269,-0.269
160.806,-0.269,-0.269
160.907,-0.269,-0.269
161.007,-0.269,-0.269
161.107,-0.269,-0.269
161.207,-0.269,-0.269
161.308,-0.269,-0.269
161.407,-0.270,-0.270
161.507,-0.270,-0.270
161.607,-0.269,-0.269
161.708,-0.269,-0.269
161.808,-0.269,-0.269
161.906,-0.269,-0.269
162.007,-0.269,-0.269
162.108,-0.269,-0.269
162.206,-0.269,-0.269
162.306,-0.269,-0.269
162.408,-0.269,-0.269
162.508,-0.269,-0.269
162.608,-0.269,-0.269
162.706,-0.269,-0.269
162.807,-0.269,-0.269
162.908,-0.269,-0.269
163.007,-0.269,-0.269
163.106,-0.269,-0.269
163.207,-0.269,-0.269
163.308,-0.269,-0.269
163.407,-0.269,-0.269
163.507,-0.269,-0.269
163.608,-0.269,-0.269
163.707,-0.269,-0.269
163.807,-0.269,-0.269
163.908,-0.269,-0.269
164.008,-0.269,-0.269
164.108,-0.269,-0.269
164.206,-0.269,-0.269
164.307,-0.269,-0.269
164.408,-0.269,-0.269
164.507,-0.269,-0.269
164.607,-0.269,-0.269
164.708,-0.269,-0.269
164.808,-0.269,-0.269
164.907,-0.269,-0.269
165.006,-0.269,-0.269
165.108,-0.269,-0.269
165.207,-0.269,-0.269
165.306,-0.269,-0.269
165.407,-0.270,-0.270
165.508,-0.270,-0.270
165.607,-0.270,-0.270
165.707,-0.270,-0.270
165.808,-0.270,-0.270
165.908,-0.270,-0.270
166.008,-0.270,-0.270
166.106,-0.270,-0.270
166.207,-0.269,-0.269
166.307,-0.269,-0.269
166.407,-0.269,-0.269
166.507,-0.269,-0.269
166.608,-0.269,-0.269
166.708,-0.269,-0.269
166.807,-0.269,-0.269
166.907,-0.269,-0.269
167.007,-0.269,-0.269
167.107,-0.269,-0.269
167.207,-0.269,-0.269
167.308,-0.269,-0.269
167.407,-0.269,-0.269
167.508,-0.269,-0.269
167.606,-0.269,-0.269
167.707,-0.269,-0.269
167.808,-0.269,-0.269
167.907,-0.269,-0.269
168.007,-0.269,-0.269
168.108,-0.269,-0.269
168.208,-0.269,-0.269
168.308,-0.269,-0.269
168.407,-0.269,-0.269
168.508,-0.269,-0.269
168.607,-0.269,-0.269
168.707,-0.269,-0.269
168.808,-0.269,-0.269
168.908,-0.269,-0.269
169.008,-0.269,-0.269
169.107,-0.270,-0.270
169.208,-0.270,-0.270
169.308,-0.270,-0.270
169.408,-0.270,-0.270
169.506,-0.270,-0.270
169.607,-0.270,-0.270
169.707,-0.270,-0.270
169.807,-0.270,-0.270
169.907,-0.270,-0.270
170.007,-0.270,-0.270
170.108,-0.270,-0.270
170.208,-0.269,-0.269
170.307,-0.269,-0.269
170.408,-0.269,-0.269
170.508,-0.269,-0.269
170.608,-0.269,-0.269
170.707,-0.269,-0.269
170.807,-0.269,-0.269
170.908,-0.269,-0.269
171.008,-0.269,-0.269
171.108,-0.269,-0.269
171.208,-0.269,-0.269
171.308,-0.270,-0.270
171.406,-0.270,-0.270
171.508,-0.270,-0.270
171.607,-0.270,-0.270
171.708,-0.270,-0.270
171.807,-0.269,-0.269
171.908,-0.269,-0.269
172.008,-0.269,-0.269
172.108,-0.269,-0.269
172.207,-0.269,-0.269
172.307,-0.269,-0.269
172.407,-0.269,-0.269
172.507,-0.269,-0.269
172.608,-0.269,-0.269
172.707,-0.269,-0.269
172.807,-0.269,-0.269
172.907,-0.269,-0.269
173.008,-0.269,-0.269
173.108,-0.269,-0.269
173.208,-0.269,-0.269
173.307,-0.269,-0.269
173.408,-0.269,-0.269
173.508,-0.269,-0.269
173.608,-0.269,-0.269
173.707,-0.269,-0.269
173.807,-0.269,-0.269
173.907,-0.269,-0.269
174.007,-0.269,-0.269
174.108,-0.269,-0.269
174.207,-0.269,-0.269
174.308,-0.269,-0.269
174.408,-0.269,-0.269
174.507,-0.269,-0.269
174.608,-0.269,-0.269
174.707,-0.269,-0.269
174.807,-0.269,-0.269
174.908,-0.269,-0.269
175.007,-0.269,-0.269
175.108,-0.269,-0.269
175.208,-0.269,-0.269
175.307,-0.269,-0.269
175.407,-0.269,-0.269
175.507,-0.269,-0.269
175.607,-0.269,-0.269
175.708,-0.269,-0.269
175.808,-0.269,-0.269
175.907,-0.269,-0.269
176.007,-0.269,-0.269
176.107,-0.269,-0.269
176.207,-0.269,-0.269
176.309,-0.269,-0.269
176.407,-0.269,-0.269
176.507,-0.269,-0.269
176.607,-0.269,-0.269
176.708,-0.269,-0.269
176.807,-0.269,-0.269
176.907,-0.269,-0.269
177.008,-0.269,-0.269
177.108,-0.269,-0.269
177.207,-0.269,-0.269
177.307,-0.269,-0.269
177.408,-0.269,-0.269
177.509,-0.269,-0.269
177.607,-0.269,-0.269
177.707,-0.269,-0.269
177.807,-0.269,-0.269
177.907,-0.269,-0.269
178.007,-0.269,-0.269
178.107,-0.269,-0.269
178.208,-0.270,-0.270
178.307,-0.270,-0.270
178.407,-0.269,-0.269
178.508,-0.269,-0.269
178.608,-0.269,-0.269
178.708,-0.269,-0.269
178.808,-0.269,-0.269
178.908,-0.269,-0.269
179.008,-0.269,-0.269
179.108,-0.269,-0.269
179.208,-0.269,-0.269
179.308,-0.269,-0.269
179.408,-0.269,-0.269
179.508,-0.269,-0.269
179.607,-0.269,-0.269
179.708,-0.269,-0.269
179.808,-0.269,-0.269
179.908,-0.269,-0.269
180.008,-0.269,-0.269
180.109,-0.269,-0.269
180.209,-0.269,-0.269
180.308,-0.269,-0.269
180.408,-0.269,-0.269
180.509,-0.269,-0.269
180.607,-0.270,-0.270
180.708,-0.269,-0.269
180.808,-0.270,-0.270
180.909,-0.269,-0.269
181.008,-0.269,-0.269
181.108,-0.270,-0.270
181.207,-0.270,-0.270
181.309,-0.270,-0.270
181.408,-0.270,-0.270
181.507,-0.269,-0.269
181.608,-0.269,-0.269
181.708,-0.270,-0.270
181.808,-0.270,-0.270
181.908,-0.270,-0.270
182.008,-0.269,-0.269
182.108,-0.269,-0.269
182.208,-0.269,-0.269
182.308,-0.269,-0.269
182.408,-0.269,-0.269
182.508,-0.269,-0.269
182.608,-0.269,-0.269
182.708,-0.269,-0.269
182.809,-0.269,-0.269
182.907,-0.269,-0.269
183.007,-0.269,-0.269
183.108,-0.269,-0.269
183.208,-0.269,-0.269
183.308,-0.269,-0.269
183.407,-0.269,-0.269
183.508,-0.269,-0.269
183.607,-0.269,-0.269
183.708,-0.269,-0.269
183.808,-0.269,-0.269
183.909,-0.269,-0.269
184.008,-0.269,-0.269
184.108,-0.269,-0.269
184.207,-0.269,-0.269
184.309,-0.269,-0.269
184.407,-0.269,-0.269
184.508,-0.269,-0.269
184.609,-0.269,-0.269
184.709,-0.269,-0.269
184.807,-0.269,-0.269
184.907,-0.269,-0.269
185.008,-0.269,-0.269
185.109,-0.269,-0.269
185.207,-0.269,-0.269
185.308,-0.269,-0.269
185.408,-0.269,-0.269
185.508,-0.269,-0.269
185.607,-0.269,-0.269
185.708,-0.269,-0.269
185.809,-0.269,-0.269
185.908,-0.269,-0.269
186.008,-0.269,-0.269
186.109,-0.269,-0.269
186.208,-0.269,-0.269
186.308,-0.269,-0.269
186.408,-0.269,-0.269
186.508,-0.269,-0.269
186.609,-0.269,-0.269
186.708,-0.269,-0.269
186.808,-0.269,-0.269
186.909,-0.269,-0.269
187.008,-0.269,-0.269
187.108,-0.269,-0.269
187.208,-0.269,-0.269
187.308,-0.269,-0.269
187.408,-0.269,-0.269
187.508,-0.269,-0.269
187.609,-0.269,-0.269
187.709,-0.269,-0.269
187.809,-0.269,-0.269
187.908,-0.269,-0.269
188.009,-0.269,-0.269
188.108,-0.269,-0.269
188.208,-0.269,-0.269
188.308,-0.269,-0.269
188.408,-0.269,-0.269
188.508,-0.269,-0.269
188.607,-0.269,-0.269
188.708,-0.269,-0.269
188.808,-0.269,-0.269
188.908,-0.269,-0.269
189.008,-0.269,-0.269
189.109,-0.269,-0.269
189.208,-0.269,-0.269
189.308,-0.269,-0.269
189.408,-0.269,-0.269
189.509,-0.269,-0.269
189.609,-0.269,-0.269
189.708,-0.269,-0.269
189.807,-0.269,-0.269
189.908,-0.269,-0.269
190.008,-0.269,-0.269
190.108,-0.269,-0.269
190.207,-0.269,-0.269
190.308,-0.269,-0.269
190.408,-0.269,-0.269
190.507,-0.269,-0.269
190.607,-0.269,-0.269
190.709,-0.269,-0.269
190.809,-0.269,-0.269
190.907,-0.269,-0.269
191.009,-0.269,-0.269
191.108,-0.269,-0.269
191.208,-0.269,-0.269
191.307,-0.269,-0.269
191.408,-0.269,-0.269
191.508,-0.269,-0.269
191.609,-0.269,-0.269
191.708,-0.269,-0.269
191.809,-0.269,-0.269
191.908,-0.269,-0.269
192.009,-0.269,-0.269
192.107,-0.269,-0.269
192.209,-0.269,-0.269
192.308,-0.269,-0.269
192.408,-0.269,-0.269
192.508,-0.269,-0.269
192.608,-0.269,-0.269
192.708,-0.269,-0.269
192.808,-0.269,-0.269
192.909,-0.269,-0.269
193.009,-0.269,-0.269
193.108,-0.269,-0.269
193.208,-0.269,-0.269
193.309,-0.269,-0.269
193.409,-0.269,-0.269
193.508,-0.269,-0.269
193.608,-0.269,-0.269
193.709,-0.269,-0.269
193.809,-0.269,-0.269
193.909,-0.269,-0.269
194.009,-0.269,-0.269
194.108,-0.269,-0.269
194.209,-0.269,-0.269
194.309,-0.269,-0.269
194.408,-0.269,-0.269
194.509,-0.269,-0.269
194.609,-0.269,-0.269
194.708,-0.269,-0.269
194.809,-0.269,-0.269
194.908,-0.269,-0.269
195.008,-0.269,-0.269
195.108,-0.269,-0.269
195.209,-0.269,-0.269
195.309,-0.269,-0.269
195.409,-0.269,-0.269
195.508,-0.269,-0.269
195.608,-0.269,-0.269
195.708,-0.269,-0.269
195.809,-0.269,-0.269
195.908,-0.269,-0.269
196.008,-0.269,-0.269
196.109,-0.269,-0.269
196.208,-0.269,-0.269
196.308,-0.269,-0.269
196.408,-0.269,-0.269
196.509,-0.269,-0.269
196.608,-0.269,-0.269
196.709,-0.269,-0.269
196.808,-0.269,-0.269
196.908,-0.269,-0.269
197.008,-0.269,-0.269
197.109,-0.269,-0.269
197.209,-0.269,-0.269
197.309,-0.269,-0.269
197.408,-0.269,-0.269
197.508,-0.269,-0.269
197.608,-0.269,-0.269
197.708,-0.269,-0.269
197.808,-0.269,-0.269
197.908,-0.269,-0.269
198.008,-0.269,-0.269
198.108,-0.269,-0.269
198.209,-0.269,-0.269
198.308,-0.269,-0.269
198.408,-0.269,-0.269
198.509,-0.269,-0.269
198.608,-0.269,-0.269
198.708,-0.269,-0.269
198.808,-0.269,-0.269
198.909,-0.269,-0.269
199.008,-0.269,-0.269
199.109,-0.269,-0.269
199.209,-0.269,-0.269
199.309,-0.269,-0.269
199.408,-0.269,-0.269
199.508,-0.269,-0.269
199.609,-0.269,-0.269
199.708,-0.269,-0.269
199.809,-0.269,-0.269
199.908,-0.269,-0.269
200.008,-0.269,-0.269
200.108,-0.269,-0.269
200.209,-0.269,-0.269
200.309,-0.269,-0.269
200.410,-0.269,-0.269
200.509,-0.269,-0.269
200.609,-0.269,-0.269
200.709,-0.269,-0.269
200.809,-0.269,-0.269
200.908,-0.269,-0.269
201.008,-0.269,-0.269
201.108,-0.269,-0.269
201.210,-0.269,-0.269
201.309,-0.269,-0.269
201.408,-0.269,-0.269
201.508,-0.269,-0.269
201.609,-0.269,-0.269
201.709,-0.269,-0.269
201.809,-0.269,-0.269
201.910,-0.269,-0.269
202.009,-0.269,-0.269
202.109,-0.269,-0.269
202.209,-0.269,-0.269
202.310,-0.269,-0.269
202.408,-0.269,-0.269
202.508,-0.269,-0.269
202.609,-0.269,-0.269
202.710,-0.269,-0.269
202.808,-0.269,-0.269
202.908,-0.269,-0.269
203.008,-0.269,-0.269
203.109,-0.269,-0.269
203.208,-0.269,-0.269
203.308,-0.269,-0.269
203.409,-0.269,-0.269
203.510,-0.269,-0.269
203.608,-0.269,-0.269
203.708,-0.269,-0.269
203.809,-0.269,-0.269
203.909,-0.269,-0.269
204.008,-0.269,-0.269
204.108,-0.269,-0.269
204.210,-0.269,-0.269
204.308,-0.269,-0.269
204.408,-0.269,-0.269
204.508,-0.269,-0.269
204.609,-0.269,-0.269
204.709,-0.269,-0.269
204.808,-0.269,-0.269
204.910,-0.269,-0.269
205.010,-0.269,-0.269
205.108,-0.269,-0.269
205.208,-0.269,-0.269
205.309,-0.269,-0.269
205.409,-0.269,-0.269
205.508,-0.269,-0.269
205.608,-0.269,-0.269
205.709,-0.269,-0.269
205.809,-0.269,-0.269
205.908,-0.269,-0.269
206.009,-0.269,-0.269
206.109,-0.269,-0.269
206.208,-0.269,-0.269
206.309,-0.269,-0.269
206.410,-0.269,-0.269
206.509,-0.269,-0.269
206.609,-0.269,-0.269
206.708,-0.269,-0.269
206.809,-0.269,-0.269
206.909,-0.269,-0.269
207.009,-0.269,-0.269
207.109,-0.269,-0.269
207.210,-0.269,-0.269
207.310,-0.269,-0.269
207.408,-0.269,-0.269
207.508,-0.269,-0.269
207.609,-0.269,-0.269
207.710,-0.269,-0.269
207.809,-0.269,-0.269
207.909,-0.269,-0.269
208.009,-0.269,-0.269
208.110,-0.269,-0.269
208.209,-0.269,-0.269
208.309,-0.269,-0.269
208.410,-0.269,-0.269
208.508,-0.269,-0.269
208.609,-0.269,-0.269
208.710,-0.269,-0.269
208.809,-0.269,-0.269
208.909,-0.269,-0.269
209.009,-0.269,-0.269
209.110,-0.269,-0.269
209.210,-0.269,-0.269
209.308,-0.269,-0.269
209.408,-0.269,-0.269
209.509,-0.269,-0.269
209.609,-0.269,-0.269
209.709,-0.269,-0.269
209.809,-0.269,-0.269
209.909,-0.269,-0.269
210.010,-0.269,-0.269
210.108,-0.269,-0.269
210.209,-0.269,-0.269
210.309,-0.269,-0.269
210.410,-0.269,-0.269
210.509,-0.269,-0.269
210.609,-0.269,-0.269
210.710,-0.269,-0.269
210.809,-0.270,-0.270
210.909,-0.270,-0.270
211.010,-0.269,-0.269
211.110,-0.270,-0.270
211.209,-0.270,-0.270
211.309,-0.269,-0.269
211.410,-0.269,-0.269
211.510,-0.269,-0.269
211.609,-0.269,-0.269
211.710,-0.269,-0.269
211.809,-0.269,-0.269
211.910,-0.269,-0.269
212.009,-0.269,-0.269
212.110,-0.269,-0.269
212.209,-0.269,-0.269
212.310,-0.269,-0.269
212.409,-0.269,-0.269
212.510,-0.269,-0.269
212.610,-0.269,-0.269
212.709,-0.269,-0.269
212.809,-0.269,-0.269
212.910,-0.269,-0.269
213.010,-0.269,-0.269
213.109,-0.269,-0.269
213.210,-0.269,-0.269
213.310,-0.269,-0.269
213.410,-0.269,-0.269
213.508,-0.269,-0.269
213.610,-0.269,-0.269
213.709,-0.269,-0.269
213.809,-0.270,-0.270
213.909,-0.255,-0.255
214.009,-0.228,-0.228
214.110,-0.201,-0.201
214.209,-0.174,-0.174
214.310,-0.147,-0.147
214.409,-0.121,-0.121
214.510,-0.094,-0.094
214.608,-0.067,-0.067
214.709,-0.040,-0.040
214.809,-0.013,-0.013
214.909,-0.001,-0.001
215.009,-0.002,-0.002
215.110,-0.000,-0.000
215.210,0.002,0.002
215.309,0.010,0.010
215.408,0.015,0.015
215.509,0.016,0.016
215.610,0.016,0.016
215.709,0.016,0.016
215.809,0.016,0.016
215.909,0.010,0.010
216.010,0.011,0.011
216.110,-0.011,-0.011
216.209,-0.017,-0.017
216.309,-0.050,-0.050
216.409,-0.010,-0.010
216.509,-0.025,-0.025
216.610,-0.055,-0.055
216.710,-0.057,-0.057
216.810,-0.069,-0.069
216.908,-0.073,-0.073
217.009,-0.077,-0.077
217.110,-0.068,-0.068
217.209,-0.063,-0.063
217.309,-0.038,-0.038
217.410,-0.082,-0.082
217.510,-0.070,-0.070
217.609,-0.040,-0.040
217.710,-0.037,-0.037
217.810,-0.025,-0.025
217.909,-0.015,-0.015
218.010,-0.012,-0.012
218.109,-0.000,-0.000
218.209,-0.003,-0.003
218.310,-0.003,-0.003
218.408,-0.002,-0.002
218.509,-0.001,-0.001
218.609,-0.001,-0.001
218.710,-0.001,-0.001
218.809,-0.002,-0.002
218.909,-0.001,-0.001
219.009,-0.001,-0.001
219.109,-0.001,-0.001
219.210,-0.001,-0.001
219.310,-0.001,-0.001
219.410,-0.001,-0.001
219.509,-0.001,-0.001
219.609,-0.001,-0.001
219.710,-0.001,-0.001
219.809,-0.001,-0.001
219.910,-0.002,-0.002
220.010,-0.002,-0.002
220.110,-0.001,-0.001
220.210,-0.001,-0.001
220.310,-0.001,-0.001
220.409,-0.001,-0.001
220.509,-0.001,-0.001
220.610,-0.001,-0.001
220.711,-0.001,-0.001
220.809,-0.001,-0.001
220.910,-0.001,-0.001
221.009,-0.001,-0.001
221.109,-0.001,-0.001
221.210,-0.001,-0.001
221.310,-0.001,-0.001
221.410,-0.001,-0.001
221.510,-0.001,-0.001
221.610,-0.001,-0.001
221.710,-0.001,-0.001
221.810,-0.001,-0.001
221.909,-0.001,-0.001
222.010,-0.001,-0.001
222.110,-0.001,-0.001
222.210,-0.001,-0.001
222.309,-0.001,-0.001
222.409,-0.002,-0.002
222.509,-0.004,-0.004
222.610,-0.006,-0.006
222.710,-0.007,-0.007
222.810,-0.007,-0.007
222.910,-0.008,-0.008
223.009,-0.012,-0.012
223.110,-0.014,-0.014
223.210,-0.015,-0.015
223.309,-0.017,-0.017
223.409,-0.042,-0.042
223.509,-0.074,-0.074
223.610,-0.106,-0.106
223.710,-0.140,-0.140
223.809,-0.174,-0.174
223.909,-0.208,-0.208
224.009,-0.239,-0.239
224.110,-0.271,-0.271
224.210,-0.304,-0.304
224.310,-0.331,-0.331
224.409,-0.317,-0.317
224.510,-0.298,-0.298
224.610,-0.281,-0.281
224.710,-0.264,-0.264
224.810,-0.245,-0.245
224.911,-0.218,-0.218
225.010,-0.195,-0.195
225.110,-0.176,-0.176
225.210,-0.154,-0.154
225.310,-0.073,-0.073
225.410,-0.039,-0.039
225.510,-0.035,-0.035
225.611,-0.040,-0.040
225.711,-0.046,-0.046
225.809,-0.058,-0.058
225.909,-0.080,-0.080
226.010,-0.069,-0.069
226.109,-0.070,-0.070
226.209,-0.155,-0.155
226.310,-0.261,-0.261
226.410,-0.327,-0.327
226.509,-0.352,-0.352
226.610,-0.365,-0.365
226.710,-0.377,-0.377
226.810,-0.387,-0.387
226.910,-0.393,-0.393
227.010,-0.428,-0.428
227.110,-0.449,-0.449
227.209,-0.387,-0.387
227.310,-0.372,-0.372
227.410,-0.368,-0.368
227.510,-0.369,-0.369
227.610,-0.373,-0.373
227.710,-0.375,-0.375
227.810,-0.378,-0.378
227.911,-0.378,-0.378
228.009,-0.379,-0.379
228.109,-0.380,-0.380
228.209,-0.382,-0.382
228.310,-0.382,-0.382
228.410,-0.381,-0.381
228.509,-0.384,-0.384
228.611,-0.383,-0.383
228.711,-0.385,-0.385
228.809,-0.384,-0.384
228.909,-0.385,-0.385
229.010,-0.387,-0.387
229.110,-0.389,-0.389
229.209,-0.388,-0.388
229.309,-0.388,-0.388
229.410,-0.386,-0.386
229.511,-0.384,-0.384
229.610,-0.383,-0.383
229.710,-0.382,-0.382
229.811,-0.381,-0.381
229.911,-0.380,-0.380
230.010,-0.379,-0.379
230.110,-0.379,-0.379
230.211,-0.379,-0.379
230.309,-0.377,-0.377
230.410,-0.378,-0.378
230.510,-0.378,-0.378
230.610,-0.378,-0.378
230.709,-0.377,-0.377
230.810,-0.378,-0.378
230.910,-0.377,-0.377
231.010,-0.376,-0.376
231.109,-0.375,-0.375
231.210,-0.377,-0.377
231.310,-0.379,-0.379
231.410,-0.378,-0.378
231.510,-0.378,-0.378
231.611,-0.379,-0.379
231.711,-0.381,-0.381
231.811,-0.381,-0.381
231.910,-0.383,-0.383
232.011,-0.385,-0.385
232.111,-0.386,-0.386
232.209,-0.384,-0.384
232.309,-0.383,-0.383
232.410,-0.383,-0.383
232.510,-0.386,-0.386
232.610,-0.385,-0.385
232.710,-0.386,-0.386
232.810,-0.387,-0.387
232.910,-0.385,-0.385
233.009,-0.382,-0.382
233.110,-0.382,-0.382
233.211,-0.382,-0.382
233.311,-0.381,-0.381
233.409,-0.383,-0.383
233.510,-0.382,-0.382
233.611,-0.381,-0.381
233.711,-0.380,-0.380
233.810,-0.379,-0.379
233.911,-0.380,-0.380
234.010,-0.382,-0.382
234.110,-0.382,-0.382
234.209,-0.383,-0.383
234.311,-0.384,-0.384
234.411,-0.384,-0.384
234.509,-0.384,-0.384
234.611,-0.384,-0.384
234.711,-0.385,-0.385
234.810,-0.385,-0.385
234.910,-0.386,-0.386
235.010,-0.387,-0.387
235.110,-0.388,-0.388
235.210,-0.388,-0.388
235.310,-0.386,-0.386
235.411,-0.387,-0.387
235.511,-0.388,-0.388
235.611,-0.387,-0.387
235.709,-0.386,-0.386
235.811,-0.388,-0.388
235.910,-0.388,-0.388
236.010,-0.386,-0.386
236.109,-0.385,-0.385
236.210,-0.326,-0.326
236.311,-0.327,-0.327
236.409,-0.321,-0.321
236.510,-0.336,-0.336
236.610,-0.297,-0.297
236.710,-0.256,-0.256
236.810,-0.291,-0.291
236.910,-0.316,-0.316
237.010,-0.317,-0.317
237.110,-0.318,-0.318
237.209,-0.407,-0.407
237.310,-0.408,-0.408
237.411,-0.412,-0.412
237.511,-0.384,-0.384
237.609,-0.419,-0.419
237.710,-0.408,-0.408
237.810,-0.372,-0.372
237.910,-0.341,-0.341
238.011,-0.364,-0.364
238.111,-0.360,-0.360
238.211,-0.332,-0.332
238.310,-0.332,-0.332
238.411,-0.335,-0.335
238.511,-0.349,-0.349
238.610,-0.356,-0.356
238.710,-0.410,-0.410
238.811,-0.411,-0.411
238.911,-0.417,-0.417
239.011,-0.396,-0.396
239.110,-0.399,-0.399
239.210,-0.429,-0.429
239.310,-0.427,-0.427
239.410,-0.418,-0.418
239.511,-0.407,-0.407
239.610,-0.393,-0.393
239.710,-0.379,-0.379
239.810,-0.366,-0.366
239.911,-0.354,-0.354
240.011,-0.340,-0.340
240.111,-0.329,-0.329
240.211,-0.286,-0.286
240.310,-0.275,-0.275
240.410,-0.271,-0.271
240.510,-0.270,-0.270
240.610,-0.270,-0.270
240.711,-0.269,-0.269
240.810,-0.269,-0.269
240.910,-0.269,-0.269
241.011,-0.269,-0.269
241.111,-0.269,-0.269
241.210,-0.269,-0.269
241.310,-0.269,-0.269
241.411,-0.269,-0.269
241.510,-0.269,-0.269
241.610,-0.269,-0.269
241.710,-0.269,-0.269
241.811,-0.269,-0.269
241.911,-0.269,-0.269
242.010,-0.269,-0.269
242.110,-0.269,-0.269
242.211,-0.269,-0.269
242.311,-0.269,-0.269
242.411,-0.269,-0.269
242.510,-0.269,-0.269
242.610,-0.269,-0.269
242.711,-0.269,-0.269
242.811,-0.269,-0.269
242.910,-0.269,-0.269
243.010,-0.269,-0.269
243.111,-0.269,-0.269
243.210,-0.269,-0.269
243.311,-0.269,-0.269
243.411,-0.269,-0.269
243.510,-0.269,-0.269
243.611,-0.269,-0.269
243.710,-0.269,-0.269
243.810,-0.269,-0.269
243.910,-0.269,-0.269
244.010,-0.269,-0.269
244.111,-0.269,-0.269
244.211,-0.269,-0.269
244.311,-0.269,-0.269
244.410,-0.269,-0.269
244.510,-0.269,-0.269
244.610,-0.269,-0.269
244.710,-0.269,-0.269
244.811,-0.269,-0.269
244.911,-0.269,-0.269
245.011,-0.269,-0.269
245.111,-0.269,-0.269
245.210,-0.269,-0.269
245.310,-0.269,-0.269
245.410,-0.269,-0.269
245.510,-0.269,-0.269
245.610,-0.269,-0.269
245.710,-0.269,-0.269
245.810,-0.269,-0.269
245.911,-0.269,-0.269
246.011,-0.269,-0.269
246.111,-0.269,-0.269
246.211,-0.269,-0.269
246.311,-0.269,-0.269
246.410,-0.269,-0.269
246.510,-0.269,-0.269
246.610,-0.269,-0.269
246.711,-0.269,-0.269
246.811,-0.269,-0.269
246.911,-0.269,-0.269
247.011,-0.269,-0.269
247.112,-0.269,-0.269
247.210,-0.269,-0.269
247.310,-0.269,-0.269
247.411,-0.269,-0.269
247.511,-0.269,-0.269
247.610,-0.269,-0.269
247.711,-0.269,-0.269
247.811,-0.269,-0.269
247.911,-0.269,-0.269
248.011,-0.269,-0.269
248.111,-0.269,-0.269
248.211,-0.269,-0.269
248.311,-0.269,-0.269
248.411,-0.269,-0.269
248.510,-0.269,-0.269
248.612,-0.269,-0.269
248.711,-0.269,-0.269
248.811,-0.269,-0.269
248.911,-0.269,-0.269
249.012,-0.269,-0.269
249.110,-0.269,-0.269
249.210,-0.269,-0.269
249.311,-0.269,-0.269
249.411,-0.269,-0.269
249.511,-0.269,-0.269
249.610,-0.269,-0.269
249.712,-0.269,-0.269
249.811,-0.269,-0.269
249.911,-0.269,-0.269
250.011,-0.269,-0.269
250.112,-0.269,-0.269
250.210,-0.269,-0.269
250.310,-0.269,-0.269
250.410,-0.269,-0.269
250.511,-0.269,-0.269
250.611,-0.269,-0.269
250.711,-0.269,-0.269
250.812,-0.269,-0.269
250.911,-0.269,-0.269
251.010,-0.269,-0.269
251.110,-0.269,-0.269
251.211,-0.269,-0.269
251.312,-0.269,-0.269
251.410,-0.269,-0.269
251.511,-0.269,-0.269
251.612,-0.269,-0.269
251.710,-0.269,-0.269
251.810,-0.269,-0.269
251.910,-0.269,-0.269
252.012,-0.269,-0.269
252.110,-0.269,-0.269
252.211,-0.269,-0.269
252.312,-0.269,-0.269
252.411,-0.269,-0.269
252.510,-0.269,-0.269
252.611,-0.269,-0.269
252.712,-0.269,-0.269
252.811,-0.269,-0.269
252.911,-0.269,-0.269
253.011,-0.269,-0.269
253.112,-0.269,-0.269
253.212,-0.269,-0.269
253.310,-0.269,-0.269
253.411,-0.269,-0.269
253.512,-0.269,-0.269
253.612,-0.269,-0.269
253.710,-0.269,-0.269
253.812,-0.269,-0.269
253.912,-0.269,-0.269
254.010,-0.269,-0.269
254.110,-0.269,-0.269
254.211,-0.269,-0.269
254.312,-0.269,-0.269
254.410,-0.269,-0.269
254.510,-0.269,-0.269
254.611,-0.269,-0.269
254.712,-0.269,-0.269
254.810,-0.269,-0.269
254.910,-0.269,-0.269
255.011,-0.269,-0.269
255.111,-0.269,-0.269
255.210,-0.269,-0.269
255.312,-0.269,-0.269
255.412,-0.269,-0.269
255.512,-0.269,-0.269
255.611,-0.269,-0.269
255.712,-0.269,-0.269
255.812,-0.269,-0.269
255.910,-0.269,-0.269
256.011,-0.269,-0.269
256.112,-0.269,-0.269
256.211,-0.269,-0.269
256.311,-0.269,-0.269
256.411,-0.269,-0.269
256.512,-0.269,-0.269
256.612,-0.269,-0.269
256.711,-0.269,-0.269
256.811,-0.269,-0.269
256.911,-0.269,-0.269
257.012,-0.269,-0.269
257.110,-0.269,-0.269
257.212,-0.269,-0.269
257.311,-0.269,-0.269
257.411,-0.269,-0.269
257.511,-0.269,-0.269
257.612,-0.269,-0.269
257.711,-0.269,-0.269
257.812,-0.269,-0.269
257.910,-0.269,-0.269
258.012,-0.269,-0.269
258.112,-0.269,-0.269
258.211,-0.269,-0.269
258.311,-0.269,-0.269
258.412,-0.269,-0.269
258.512,-0.269,-0.269
258.611,-0.269,-0.269
258.711,-0.269,-0.269
258.812,-0.269,-0.269
258.912,-0.269,-0.269
259.010,-0.269,-0.269
259.111,-0.269,-0.269
259.211,-0.269,-0.269
259.312,-0.269,-0.269
259.410,-0.269,-0.269
259.511,-0.269,-0.269
259.611,-0.269,-0.269
259.711,-0.269,-0.269
259.811,-0.269,-0.269
259.911,-0.269,-0.269
260.012,-0.269,-0.269
260.110,-0.269,-0.269
260.212,-0.269,-0.269
260.312,-0.269,-0.269
260.412,-0.269,-0.269
260.511,-0.269,-0.269
260.611,-0.269,-0.269
260.711,-0.269,-0.269
260.811,-0.269,-0.269
260.911,-0.269,-0.269
261.011,-0.269,-0.269
261.111,-0.269,-0.269
261.211,-0.269,-0.269
261.312,-0.269,-0.269
261.412,-0.269,-0.269
261.512,-0.269,-0.269
261.612,-0.269,-0.269
261.711,-0.269,-0.269
261.812,-0.269,-0.269
261.911,-0.269,-0.269
262.011,-0.269,-0.269
262.112,-0.269,-0.269
262.212,-0.269,-0.269
262.311,-0.269,-0.269
262.411,-0.269,-0.269
262.512,-0.269,-0.269
262.611,-0.269,-0.269
262.711,-0.269,-0.269
262.812,-0.269,-0.269
262.912,-0.269,-0.269
263.012,-0.269,-0.269
263.112,-0.269,-0.269
263.211,-0.269,-0.269
263.311,-0.269,-0.269
263.412,-0.269,-0.269
263.511,-0.269,-0.269
263.612,-0.269,-0.269
263.712,-0.269,-0.269
263.811,-0.269,-0.269
263.911,-0.269,-0.269
264.012,-0.242,-0.242
264.111,-0.215,-0.215
264.212,-0.188,-0.188
264.312,-0.161,-0.161
264.412,-0.134,-0.134
264.511,-0.107,-0.107
264.612,-0.081,-0.081
264.712,-0.054,-0.054
264.812,-0.027,-0.027
